"participant","version","source_cluster","block","trial_in_block","current_ap","current_hp","intact","nam_unn","rs_rt_n","key_resp_14.keys","key_resp_14.corr"
865,"A",1,1,1,"unn2/abstract01d_ap.jpg","unn2/abstract01e_hp.jpg","left","unn","RS","right",0
865,"A",1,1,2,"unn2/abstract06_ap.jpg","unn2/abstract06_hp.jpg","right","unn","RT","right",1
865,"A",1,1,3,"unn2/abstract09_ap.jpg","unn2/abstract09a_hp.jpg","left","unn","N","right",0
865,"A",1,1,4,"Nam2/inanimate01_ap.jpg","Nam2/inanimate01_hp.jpg","right","nam","RS","right",1
865,"A",1,1,5,"unn2/abstract01e_ap.jpg","unn2/abstract01d_hp.jpg","left","unn","RS","left",1
865,"A",1,1,6,"Nam2/inanimate08a_ap.jpg","Nam2/inanimate08a_hp.jpg","right","nam","N","right",1
865,"A",1,1,7,"unn2/abstract06a_ap.jpg","unn2/abstract06a_hp.jpg","right","unn","RT","right",1
865,"A",1,1,8,"Nam2/inanimate04_ap.jpg","Nam2/inanimate04a_hp.jpg","left","nam","RT","left",1
865,"A",1,1,9,"unn2/abstract09a_ap.jpg","unn2/abstract09_hp.jpg","left","unn","N","left",1
865,"A",1,1,10,"Nam2/inanimate08_ap.jpg","Nam2/inanimate08_hp.jpg","right","nam","N","left",0
865,"A",1,1,11,"Nam2/inanimate01a_ap.jpg","Nam2/inanimate01a_hp.jpg","right","nam","RS","right",1
865,"A",1,1,12,"Nam2/inanimate04a_ap.jpg","Nam2/inanimate04_hp.jpg","left","nam","RT","left",1
865,"A",1,1,13,"unn2/abstract09_ap.jpg","unn2/abstract09_hp.jpg","right","unn","N","right",1
865,"A",1,1,14,"Nam2/inanimate08a_ap.jpg","Nam2/inanimate08_hp.jpg","left","nam","N","left",1
865,"A",1,1,15,"unn2/abstract09a_ap.jpg","unn2/abstract09a_hp.jpg","right","unn","N","left",0
865,"A",1,1,16,"unn2/abstract06_ap.jpg","unn2/abstract06a_hp.jpg","left","unn","RT","left",1
865,"A",1,1,17,"unn2/abstract01e_ap.jpg","unn2/abstract01e_hp.jpg","right","unn","RS","right",1
865,"A",1,1,18,"Nam2/inanimate08_ap.jpg","Nam2/inanimate08a_hp.jpg","left","nam","N","left",1
865,"A",1,1,19,"Nam2/inanimate01_ap.jpg","Nam2/inanimate01a_hp.jpg","left","nam","RS","right",0
865,"A",1,1,20,"Nam2/inanimate01a_ap.jpg","Nam2/inanimate01_hp.jpg","left","nam","RS","left",1
865,"A",1,1,21,"Nam2/inanimate04a_ap.jpg","Nam2/inanimate04a_hp.jpg","right","nam","RT","right",1
865,"A",1,1,22,"unn2/abstract06a_ap.jpg","unn2/abstract06_hp.jpg","left","unn","RT","left",1
865,"A",1,1,23,"Nam2/inanimate04_ap.jpg","Nam2/inanimate04_hp.jpg","right","nam","RT","right",1
865,"A",1,1,24,"unn2/abstract01d_ap.jpg","unn2/abstract01d_hp.jpg","right","unn","RS","right",1
865,"A",2,2,1,"unn2/abstract02d_ap.jpg","unn2/abstract02e_hp.jpg","left","unn","RS","right",0
865,"A",2,2,2,"unn2/abstract06b_ap.jpg","unn2/abstract06b_hp.jpg","right","unn","RT","right",1
865,"A",2,2,3,"unn2/abstract09b_ap.jpg","unn2/abstract09c_hp.jpg","left","unn","N","left",1
865,"A",2,2,4,"Nam2/inanimate02b_ap.jpg","Nam2/inanimate02b_hp.jpg","right","nam","RS","right",1
865,"A",2,2,5,"unn2/abstract02e_ap.jpg","unn2/abstract02d_hp.jpg","left","unn","RS","left",1
865,"A",2,2,6,"Nam2/inanimate09c_ap.jpg","Nam2/inanimate09c_hp.jpg","right","nam","N","right",1
865,"A",2,2,7,"unn2/abstract06c_ap.jpg","unn2/abstract06c_hp.jpg","right","unn","RT","right",1
865,"A",2,2,8,"Nam2/inanimate05b_ap.jpg","Nam2/inanimate05c_hp.jpg","left","nam","RT","left",1
865,"A",2,2,9,"unn2/abstract09c_ap.jpg","unn2/abstract09b_hp.jpg","left","unn","N","left",1
865,"A",2,2,10,"Nam2/inanimate09b_ap.jpg","Nam2/inanimate09b_hp.jpg","right","nam","N","right",1
865,"A",2,2,11,"Nam2/inanimate02c_ap.jpg","Nam2/inanimate02c_hp.jpg","right","nam","RS","right",1
865,"A",2,2,12,"Nam2/inanimate05c_ap.jpg","Nam2/inanimate05b_hp.jpg","left","nam","RT","left",1
865,"A",2,2,13,"unn2/abstract02d_ap.jpg","unn2/abstract02d_hp.jpg","right","unn","RS","right",1
865,"A",2,2,14,"unn2/abstract06b_ap.jpg","unn2/abstract06c_hp.jpg","left","unn","RT","left",1
865,"A",2,2,15,"unn2/abstract09b_ap.jpg","unn2/abstract09b_hp.jpg","right","unn","N","right",1
865,"A",2,2,16,"Nam2/inanimate02b_ap.jpg","Nam2/inanimate02c_hp.jpg","left","nam","RS","left",1
865,"A",2,2,17,"unn2/abstract02e_ap.jpg","unn2/abstract02e_hp.jpg","right","unn","RS","right",1
865,"A",2,2,18,"Nam2/inanimate09c_ap.jpg","Nam2/inanimate09b_hp.jpg","left","nam","N","left",1
865,"A",2,2,19,"unn2/abstract06c_ap.jpg","unn2/abstract06b_hp.jpg","left","unn","RT","left",1
865,"A",2,2,20,"Nam2/inanimate05b_ap.jpg","Nam2/inanimate05b_hp.jpg","right","nam","RT","right",1
865,"A",2,2,21,"unn2/abstract09c_ap.jpg","unn2/abstract09c_hp.jpg","right","unn","N","right",1
865,"A",2,2,22,"Nam2/inanimate09b_ap.jpg","Nam2/inanimate09c_hp.jpg","left","nam","N","left",1
865,"A",2,2,23,"Nam2/inanimate02c_ap.jpg","Nam2/inanimate02b_hp.jpg","left","nam","RS","left",1
865,"A",2,2,24,"Nam2/inanimate05c_ap.jpg","Nam2/inanimate05c_hp.jpg","right","nam","RT","right",1
865,"A",3,3,1,"unn2/abstract03_ap.jpg","unn2/abstract03a_hp.jpg","left","unn","RS","left",1
865,"A",3,3,2,"unn2/abstract04d_ap.jpg","unn2/abstract04d_hp.jpg","right","unn","RT","right",1
865,"A",3,3,3,"unn2/abstract07d_ap.jpg","unn2/abstract07e_hp.jpg","left","unn","N","right",0
865,"A",3,3,4,"Nam2/inanimate03b_ap.jpg","Nam2/inanimate03b_hp.jpg","right","nam","RS","right",1
865,"A",3,3,5,"unn2/abstract03a_ap.jpg","unn2/abstract03_hp.jpg","left","unn","RS","left",1
865,"A",3,3,6,"Nam2/inanimate09e_ap.jpg","Nam2/inanimate09e_hp.jpg","right","nam","N","right",1
865,"A",3,3,7,"unn2/abstract04e_ap.jpg","unn2/abstract04e_hp.jpg","right","unn","RT","right",1
865,"A",3,3,8,"Nam2/inanimate05d_ap.jpg","Nam2/inanimate05e_hp.jpg","left","nam","RT","left",1
865,"A",3,3,9,"unn2/abstract07e_ap.jpg","unn2/abstract07d_hp.jpg","left","unn","N","left",1
865,"A",3,3,10,"Nam2/inanimate09d_ap.jpg","Nam2/inanimate09d_hp.jpg","right","nam","N","right",1
865,"A",3,3,11,"Nam2/inanimate03c_ap.jpg","Nam2/inanimate03c_hp.jpg","right","nam","RS","right",1
865,"A",3,3,12,"Nam2/inanimate05e_ap.jpg","Nam2/inanimate05d_hp.jpg","left","nam","RT","left",1
865,"A",3,3,13,"unn2/abstract03_ap.jpg","unn2/abstract03_hp.jpg","right","unn","RS","right",1
865,"A",3,3,14,"unn2/abstract04d_ap.jpg","unn2/abstract04e_hp.jpg","left","unn","RT","left",1
865,"A",3,3,15,"unn2/abstract07d_ap.jpg","unn2/abstract07d_hp.jpg","right","unn","N","right",1
865,"A",3,3,16,"Nam2/inanimate03b_ap.jpg","Nam2/inanimate03c_hp.jpg","left","nam","RS","left",1
865,"A",3,3,17,"unn2/abstract03a_ap.jpg","unn2/abstract03a_hp.jpg","right","unn","RS","right",1
865,"A",3,3,18,"Nam2/inanimate09e_ap.jpg","Nam2/inanimate09d_hp.jpg","left","nam","N","left",1
865,"A",3,3,19,"unn2/abstract04e_ap.jpg","unn2/abstract04d_hp.jpg","left","unn","RT","left",1
865,"A",3,3,20,"Nam2/inanimate05d_ap.jpg","Nam2/inanimate05d_hp.jpg","right","nam","RT","right",1
865,"A",3,3,21,"unn2/abstract07e_ap.jpg","unn2/abstract07e_hp.jpg","right","unn","N","right",1
865,"A",3,3,22,"Nam2/inanimate09d_ap.jpg","Nam2/inanimate09e_hp.jpg","left","nam","N","left",1
865,"A",3,3,23,"Nam2/inanimate03c_ap.jpg","Nam2/inanimate03b_hp.jpg","left","nam","RS","right",0
865,"A",3,3,24,"Nam2/inanimate05e_ap.jpg","Nam2/inanimate05e_hp.jpg","right","nam","RT","right",1
865,"A",4,4,1,"unn2/abstract01_ap.jpg","unn2/abstract01a_hp.jpg","left","unn","RS","left",1
865,"A",4,4,2,"unn2/abstract04_ap.jpg","unn2/abstract04_hp.jpg","right","unn","RT","right",1
865,"A",4,4,3,"unn2/abstract07_ap.jpg","unn2/abstract07a_hp.jpg","left","unn","N","left",1
865,"A",4,4,4,"Nam2/inanimate02_ap.jpg","Nam2/inanimate02_hp.jpg","right","nam","RS","right",1
865,"A",4,4,5,"unn2/abstract01a_ap.jpg","unn2/abstract01_hp.jpg","left","unn","RS","left",1
865,"A",4,4,6,"Nam2/inanimate08c_ap.jpg","Nam2/inanimate08c_hp.jpg","right","nam","N","right",1
865,"A",4,4,7,"unn2/abstract04a_ap.jpg","unn2/abstract04a_hp.jpg","right","unn","RT","right",1
865,"A",4,4,8,"Nam2/inanimate04b_ap.jpg","Nam2/inanimate04c_hp.jpg","left","nam","RT","left",1
865,"A",4,4,9,"unn2/abstract07a_ap.jpg","unn2/abstract07_hp.jpg","left","unn","N","right",0
865,"A",4,4,10,"Nam2/inanimate08b_ap.jpg","Nam2/inanimate08b_hp.jpg","right","nam","N","right",1
865,"A",4,4,11,"Nam2/inanimate02a_ap.jpg","Nam2/inanimate02a_hp.jpg","right","nam","RS","right",1
865,"A",4,4,12,"Nam2/inanimate04c_ap.jpg","Nam2/inanimate04b_hp.jpg","left","nam","RT","left",1
865,"A",4,4,13,"unn2/abstract01_ap.jpg","unn2/abstract01_hp.jpg","right","unn","RS","right",1
865,"A",4,4,14,"unn2/abstract04_ap.jpg","unn2/abstract04a_hp.jpg","left","unn","RT","left",1
865,"A",4,4,15,"unn2/abstract07_ap.jpg","unn2/abstract07_hp.jpg","right","unn","N","left",0
865,"A",4,4,16,"Nam2/inanimate02_ap.jpg","Nam2/inanimate02a_hp.jpg","left","nam","RS","left",1
865,"A",4,4,17,"unn2/abstract01a_ap.jpg","unn2/abstract01a_hp.jpg","right","unn","RS","right",1
865,"A",4,4,18,"Nam2/inanimate08c_ap.jpg","Nam2/inanimate08b_hp.jpg","left","nam","N","left",1
865,"A",4,4,19,"unn2/abstract04a_ap.jpg","unn2/abstract04_hp.jpg","left","unn","RT","left",1
865,"A",4,4,20,"Nam2/inanimate04b_ap.jpg","Nam2/inanimate04b_hp.jpg","right","nam","RT","right",1
865,"A",4,4,21,"unn2/abstract07a_ap.jpg","unn2/abstract07a_hp.jpg","right","unn","N","right",1
865,"A",4,4,22,"Nam2/inanimate08b_ap.jpg","Nam2/inanimate08c_hp.jpg","left","nam","N","left",1
865,"A",4,4,23,"Nam2/inanimate02a_ap.jpg","Nam2/inanimate02_hp.jpg","left","nam","RS","left",1
865,"A",4,4,24,"Nam2/inanimate04c_ap.jpg","Nam2/inanimate04c_hp.jpg","right","nam","RT","right",1
865,"A",5,5,1,"unn2/abstract01b_ap.jpg","unn2/abstract01c_hp.jpg","left","unn","RS","left",1
865,"A",5,5,2,"unn2/abstract05_ap.jpg","unn2/abstract05_hp.jpg","right","unn","RT","right",1
865,"A",5,5,3,"unn2/abstract08_ap.jpg","unn2/abstract08a_hp.jpg","left","unn","N","right",0
865,"A",5,5,4,"Nam2/inanimate03_ap.jpg","Nam2/inanimate03_hp.jpg","right","nam","RS","right",1
865,"A",5,5,5,"unn2/abstract01c_ap.jpg","unn2/abstract01b_hp.jpg","left","unn","RS","left",1
865,"A",5,5,6,"Nam2/inanimate08e_ap.jpg","Nam2/inanimate08e_hp.jpg","right","nam","N","right",1
865,"A",5,5,7,"unn2/abstract05a_ap.jpg","unn2/abstract05a_hp.jpg","right","unn","RT","right",1
865,"A",5,5,8,"Nam2/inanimate04d_ap.jpg","Nam2/inanimate04e_hp.jpg","left","nam","RT","left",1
865,"A",5,5,9,"unn2/abstract08a_ap.jpg","unn2/abstract08_hp.jpg","left","unn","N","left",1
865,"A",5,5,10,"Nam2/inanimate08d_ap.jpg","Nam2/inanimate08d_hp.jpg","right","nam","N","right",1
865,"A",5,5,11,"Nam2/inanimate03a_ap.jpg","Nam2/inanimate03a_hp.jpg","right","nam","RS","right",1
865,"A",5,5,12,"Nam2/inanimate04e_ap.jpg","Nam2/inanimate04d_hp.jpg","left","nam","RT","left",1
865,"A",5,5,13,"unn2/abstract01b_ap.jpg","unn2/abstract01b_hp.jpg","right","unn","RS","right",1
865,"A",5,5,14,"unn2/abstract05_ap.jpg","unn2/abstract05a_hp.jpg","left","unn","RT","left",1
865,"A",5,5,15,"unn2/abstract08_ap.jpg","unn2/abstract08_hp.jpg","right","unn","N","right",1
865,"A",5,5,16,"Nam2/inanimate03_ap.jpg","Nam2/inanimate03a_hp.jpg","left","nam","RS","left",1
865,"A",5,5,17,"unn2/abstract01c_ap.jpg","unn2/abstract01c_hp.jpg","right","unn","RS","right",1
865,"A",5,5,18,"Nam2/inanimate08e_ap.jpg","Nam2/inanimate08d_hp.jpg","left","nam","N","left",1
865,"A",5,5,19,"unn2/abstract05a_ap.jpg","unn2/abstract05_hp.jpg","left","unn","RT","left",1
865,"A",5,5,20,"Nam2/inanimate04d_ap.jpg","Nam2/inanimate04d_hp.jpg","right","nam","RT","left",0
865,"A",5,5,21,"unn2/abstract08a_ap.jpg","unn2/abstract08a_hp.jpg","right","unn","N","right",1
865,"A",5,5,22,"Nam2/inanimate08d_ap.jpg","Nam2/inanimate08e_hp.jpg","left","nam","N","left",1
865,"A",5,5,23,"Nam2/inanimate03a_ap.jpg","Nam2/inanimate03_hp.jpg","left","nam","RS","left",1
865,"A",5,5,24,"Nam2/inanimate04e_ap.jpg","Nam2/inanimate04e_hp.jpg","right","nam","RT","left",0
865,"A",6,6,1,"Nam2/inanimate09a_ap.jpg","Nam2/inanimate09a_hp.jpg","right","nam","N","left",0
865,"A",6,6,2,"Nam2/inanimate01b_ap.jpg","Nam2/inanimate01b_hp.jpg","right","nam","RS","left",0
865,"A",6,6,3,"unn2/abstract05d_ap.jpg","unn2/abstract05d_hp.jpg","right","unn","RT","right",1
865,"A",6,6,4,"Nam2/inanimate05a_ap.jpg","Nam2/inanimate05_hp.jpg","left","nam","RT","left",1
865,"A",6,6,5,"unn2/abstract03c_ap.jpg","unn2/abstract03b_hp.jpg","left","unn","RS","left",1
865,"A",6,6,6,"unn2/abstract05e_ap.jpg","unn2/abstract05e_hp.jpg","right","unn","RT","right",1
865,"A",6,6,7,"unn2/abstract08d_ap.jpg","unn2/abstract08e_hp.jpg","left","unn","N","left",1
865,"A",6,6,8,"Nam2/inanimate09_ap.jpg","Nam2/inanimate09_hp.jpg","right","nam","N","right",1
865,"A",6,6,9,"unn2/abstract03b_ap.jpg","unn2/abstract03c_hp.jpg","left","unn","RS","right",0
865,"A",6,6,10,"Nam2/inanimate05_ap.jpg","Nam2/inanimate05a_hp.jpg","left","nam","RT","left",1
865,"A",6,6,11,"Nam2/inanimate01c_ap.jpg","Nam2/inanimate01c_hp.jpg","right","nam","RS","left",0
865,"A",6,6,12,"unn2/abstract08e_ap.jpg","unn2/abstract08d_hp.jpg","left","unn","N","left",1
865,"A",6,6,13,"unn2/abstract03b_ap.jpg","unn2/abstract03b_hp.jpg","right","unn","RS","right",1
865,"A",6,6,14,"unn2/abstract05d_ap.jpg","unn2/abstract05e_hp.jpg","left","unn","RT","right",0
865,"A",6,6,15,"unn2/abstract08d_ap.jpg","unn2/abstract08d_hp.jpg","right","unn","N","right",1
865,"A",6,6,16,"Nam2/inanimate01b_ap.jpg","Nam2/inanimate01c_hp.jpg","left","nam","RS","left",1
865,"A",6,6,17,"unn2/abstract03c_ap.jpg","unn2/abstract03c_hp.jpg","right","unn","RS","left",0
865,"A",6,6,18,"Nam2/inanimate09a_ap.jpg","Nam2/inanimate09_hp.jpg","left","nam","N","left",1
865,"A",6,6,19,"unn2/abstract05e_ap.jpg","unn2/abstract05d_hp.jpg","left","unn","RT","left",1
865,"A",6,6,20,"Nam2/inanimate05_ap.jpg","Nam2/inanimate05_hp.jpg","right","nam","RT","right",1
865,"A",6,6,21,"unn2/abstract08e_ap.jpg","unn2/abstract08e_hp.jpg","right","unn","N","right",1
865,"A",6,6,22,"Nam2/inanimate09_ap.jpg","Nam2/inanimate09a_hp.jpg","left","nam","N","left",1
865,"A",6,6,23,"Nam2/inanimate01c_ap.jpg","Nam2/inanimate01b_hp.jpg","left","nam","RS","left",1
865,"A",6,6,24,"Nam2/inanimate05a_ap.jpg","Nam2/inanimate05a_hp.jpg","right","nam","RT","right",1
865,"A",7,7,1,"unn2/abstract02b_ap.jpg","unn2/abstract02c_hp.jpg","left","unn","RS","right",0
865,"A",7,7,2,"unn2/abstract05b_ap.jpg","unn2/abstract05b_hp.jpg","right","unn","RT","right",1
865,"A",7,7,3,"unn2/abstract08b_ap.jpg","unn2/abstract08c_hp.jpg","left","unn","N","left",1
865,"A",7,7,4,"Nam2/inanimate02d_ap.jpg","Nam2/inanimate02d_hp.jpg","right","nam","RS","right",1
865,"A",7,7,5,"unn2/abstract02c_ap.jpg","unn2/abstract02b_hp.jpg","left","unn","RS","left",1
865,"A",7,7,6,"Nam2/inanimate10c_ap.jpg","Nam2/inanimate10c_hp.jpg","right","nam","N","right",1
865,"A",7,7,7,"unn2/abstract05c_ap.jpg","unn2/abstract05c_hp.jpg","right","unn","RT","right",1
865,"A",7,7,8,"Nam2/inanimate06b_ap.jpg","Nam2/inanimate06c_hp.jpg","left","nam","RT","left",1
865,"A",7,7,9,"unn2/abstract08c_ap.jpg","unn2/abstract08b_hp.jpg","left","unn","N","left",1
865,"A",7,7,10,"Nam2/inanimate10b_ap.jpg","Nam2/inanimate10b_hp.jpg","right","nam","N","None",0
865,"A",7,7,11,"Nam2/inanimate02e_ap.jpg","Nam2/inanimate02e_hp.jpg","right","nam","RS","left",0
865,"A",7,7,12,"Nam2/inanimate06c_ap.jpg","Nam2/inanimate06b_hp.jpg","left","nam","RT","left",1
865,"A",7,7,13,"unn2/abstract02b_ap.jpg","unn2/abstract02b_hp.jpg","right","unn","RS","right",1
865,"A",7,7,14,"unn2/abstract05b_ap.jpg","unn2/abstract05c_hp.jpg","left","unn","RT","left",1
865,"A",7,7,15,"unn2/abstract08b_ap.jpg","unn2/abstract08b_hp.jpg","right","unn","N","right",1
865,"A",7,7,16,"Nam2/inanimate02d_ap.jpg","Nam2/inanimate02e_hp.jpg","left","nam","RS","left",1
865,"A",7,7,17,"unn2/abstract02c_ap.jpg","unn2/abstract02c_hp.jpg","right","unn","RS","right",1
865,"A",7,7,18,"Nam2/inanimate10c_ap.jpg","Nam2/inanimate10b_hp.jpg","left","nam","N","left",1
865,"A",7,7,19,"unn2/abstract05c_ap.jpg","unn2/abstract05b_hp.jpg","left","unn","RT","right",0
865,"A",7,7,20,"Nam2/inanimate06b_ap.jpg","Nam2/inanimate06b_hp.jpg","right","nam","RT","right",1
865,"A",7,7,21,"unn2/abstract08c_ap.jpg","unn2/abstract08c_hp.jpg","right","unn","N","right",1
865,"A",7,7,22,"Nam2/inanimate10b_ap.jpg","Nam2/inanimate10c_hp.jpg","left","nam","N","left",1
865,"A",7,7,23,"Nam2/inanimate02e_ap.jpg","Nam2/inanimate02d_hp.jpg","left","nam","RS","left",1
865,"A",7,7,24,"Nam2/inanimate06c_ap.jpg","Nam2/inanimate06c_hp.jpg","right","nam","RT","right",1
865,"A",8,8,1,"unn2/abstract03d_ap.jpg","unn2/abstract03e_hp.jpg","left","unn","RS","left",1
865,"A",8,8,2,"unn2/abstract06d_ap.jpg","unn2/abstract06d_hp.jpg","right","unn","RT","right",1
865,"A",8,8,3,"unn2/abstract09d_ap.jpg","unn2/abstract09e_hp.jpg","left","unn","N","left",1
865,"A",8,8,4,"Nam2/inanimate03d_ap.jpg","Nam2/inanimate03d_hp.jpg","right","nam","RS","right",1
865,"A",8,8,5,"unn2/abstract03e_ap.jpg","unn2/abstract03d_hp.jpg","left","unn","RS","left",1
865,"A",8,8,6,"Nam2/inanimate10e_ap.jpg","Nam2/inanimate10e_hp.jpg","right","nam","N","right",1
865,"A",8,8,7,"unn2/abstract06e_ap.jpg","unn2/abstract06e_hp.jpg","right","unn","RT","right",1
865,"A",8,8,8,"Nam2/inanimate06d_ap.jpg","Nam2/inanimate06e_hp.jpg","left","nam","RT","left",1
865,"A",8,8,9,"unn2/abstract09e_ap.jpg","unn2/abstract09d_hp.jpg","left","unn","N","left",1
865,"A",8,8,10,"Nam2/inanimate10d_ap.jpg","Nam2/inanimate10d_hp.jpg","right","nam","N","right",1
865,"A",8,8,11,"Nam2/inanimate03e_ap.jpg","Nam2/inanimate03e_hp.jpg","right","nam","RS","right",1
865,"A",8,8,12,"Nam2/inanimate06e_ap.jpg","Nam2/inanimate06d_hp.jpg","left","nam","RT","left",1
865,"A",8,8,13,"unn2/abstract03d_ap.jpg","unn2/abstract03d_hp.jpg","right","unn","RS","right",1
865,"A",8,8,14,"unn2/abstract06d_ap.jpg","unn2/abstract06e_hp.jpg","left","unn","RT","left",1
865,"A",8,8,15,"unn2/abstract09d_ap.jpg","unn2/abstract09d_hp.jpg","right","unn","N","right",1
865,"A",8,8,16,"Nam2/inanimate03d_ap.jpg","Nam2/inanimate03e_hp.jpg","left","nam","RS","left",1
865,"A",8,8,17,"unn2/abstract03e_ap.jpg","unn2/abstract03e_hp.jpg","right","unn","RS","right",1
865,"A",8,8,18,"Nam2/inanimate10e_ap.jpg","Nam2/inanimate10d_hp.jpg","left","nam","N","left",1
865,"A",8,8,19,"unn2/abstract06e_ap.jpg","unn2/abstract06d_hp.jpg","left","unn","RT","left",1
865,"A",8,8,20,"Nam2/inanimate06d_ap.jpg","Nam2/inanimate06d_hp.jpg","right","nam","RT","right",1
865,"A",8,8,21,"unn2/abstract09e_ap.jpg","unn2/abstract09e_hp.jpg","right","unn","N","left",0
865,"A",8,8,22,"Nam2/inanimate10d_ap.jpg","Nam2/inanimate10e_hp.jpg","left","nam","N","left",1
865,"A",8,8,23,"Nam2/inanimate03e_ap.jpg","Nam2/inanimate03d_hp.jpg","left","nam","RS","left",1
865,"A",8,8,24,"Nam2/inanimate06e_ap.jpg","Nam2/inanimate06e_hp.jpg","right","nam","RT","right",1
